ARQUIVO DE REFERENCIA
AMOSTRA: Si Photodiode S-series 
Usu√°rio: Paulo Henrique Diniz

Responsividade (A/W)	Comprimento de onda(nm)
0.01062 204.751353
0.011818 212.665313
0.013115 220.579274
0.014413 228.493235
0.01591 236.407195
0.018005 244.321156
0.021139 251.575619
0.024991 260.149077
0.029482 268.063037
0.034572 275.976998
0.039662 283.890958
0.044951 291.804919
0.049118 299.718879
0.052287 303.83306
0.056528 310.270827
0.061318 318.184787
0.066208 326.098748
0.070999 334.012708
0.075789 341.926669
0.0792 349.023932
0.081541 354.457106
0.083973 361.71157
0.085669 369.625531
0.087565 377.539491
0.09016 385.453452
0.094851 393.367412
0.10009 400.134928
0.105297 404.990926
0.111617 409.195333
0.118303 413.81181
0.12509 417.768791
0.131477 421.725771
0.138463 425.682751
0.145449 429.639731
0.152634 433.596712
0.15982 437.553692
0.166207 441.510672
0.174134 446.032581
0.182424 451.403123
0.188712 456.334
0.195568 460.504178
0.202237 465.59765
0.208622 471.188024
0.216226 477.123495
0.224041 483.058965
0.231376 488.334939
0.238462 492.951416
0.246089 497.850357
0.254729 502.34157
0.262379 505.902852
0.271253 510.475185
0.280477 514.714807
0.289399 518.539888
0.298215 521.969271
0.306524 525.266755
0.313111 527.904741
0.320496 530.762561
0.328594 533.77758
0.334668 536.478199
0.343216 540.372547
0.351674 544.919757
0.359618 550.547462
0.36844 555.497005
0.374787 562.19857
0.380376 570.112531
0.385931 578.026491
0.390056 585.940452
0.394833 593.854413
0.400406 600.322875
0.404873 605.08167
0.409817 609.682334
0.416104 616.607049
0.422092 621.223526
0.42808 628.148242
0.433953 633.612111
0.438886 638.573685
0.442691 643.466425
0.442691 643.466425
0.448296 648.780536
0.454227 655.187607
0.459367 661.123077
0.465205 667.718044
0.471193 675.236307
0.475385 681.567475
0.480624 688.162442
0.486562 696.076403
0.492464 702.67137
0.499044 709.423537
0.505396 716.520801
0.511512 724.434761
0.516701 731.689225
0.522756 738.943689
0.52748 745.868405
0.533268 754.77161
0.533967 762.685571
0.535963 770.599531
0.536561 778.513492
0.537659 786.427452
0.538957 794.341413
0.541052 802.255373
0.543647 810.169334
0.546741 818.083294
0.550034 825.997255
0.553527 833.911215
0.556821 841.825176
0.559301 849.644923
0.564126 858.048795
0.569096 865.567058
0.574186 873.481018
0.578577 881.394979
0.581271 889.308939
0.581072 897.882396
0.57706 902.894571
0.574186 909.753337
0.567719 916.348304
0.560713 922.283775
0.553228 927.559748
0.545743 932.835722
0.538408 938.111696
0.531272 942.728173
0.524999 947.627114
0.518326 952.177858
0.511162 956.577604
0.505101 961.036881
0.499479 965.622662
0.493276 969.635639
0.485414 975.043512
0.477979 979.659989
0.470993 983.616969
0.463289 986.782553
0.455425 990.651601
0.448079 993.37752
0.441082 997.120772
0.43302 998.785393
0.425274 1001.555279
0.41822 1003.629764
0.411525 1004.984662
0.405614 1006.896552
0.397153 1008.363444
0.388859 1009.996837
0.380761 1012.634824
0.367961 1015.009012
0.359418 1016.591805
0.351584 1017.910798
0.34365 1019.669456
0.335716 1021.53803
0.326883 1022.857023
0.3189 1024.505765
0.310417 1025.824758
0.299563 1028.792494
0.290756 1029.781739
0.282972 1031.100732
0.276585 1032.419726
0.268651 1033.738719
0.2591 1036.112907
0.250038 1037.695699
0.242154 1039.014693
0.233352 1041.388881
0.22449 1042.971673
0.216556 1044.290666
0.209377 1046.614253
0.201077 1048.247647
0.190957 1050.885633
0.183053 1052.204627
0.176466 1055.446114
0.167454 1057.952201
0.161417 1059.239259
0.151736 1061.437581
0.142754 1064.075568
0.134221 1066.713555
0.125239 1069.351541
0.116707 1071.989528
0.108024 1074.627515
0.099461 1077.793099
0.091956 1079.903489
0.083773 1082.541476
0.075989 1085.179462
0.068504 1087.817449
0.059821 1090.455436
0.050839 1093.093423
0.042097 1096.259007
0.033025 1099.028893


