ARQUIVO DE REFERENCIA
AMOSTRA: MCT20-010-E-LN6N
Usu√°rio: Paulo Henrique Diniz

Responsividade (A/W)	Comprimento de onda(nm)

0.120466 2032.209371
0.122907 2122.901135
0.124787 2213.632409
0.127414 2304.311003
0.130129 2397.255026
0.133602 2485.602341
0.136379 2578.541973
0.139603 2666.906849
0.142727 2746.192451
0.14243 2848.435248
0.139269 2939.522114
0.135735 3030.635321
0.132761 3121.709017
0.13128 3212.677353
0.131293 3303.540328
0.133236 3394.267212
0.13356 3485.108237
0.135179 3578.129524
0.139871 3655.032923
0.146104 3722.741152
0.152836 3790.414261
0.159756 3869.432071
0.166053 3948.493782
0.173532 4016.11421
0.182004 4072.306526
0.189106 4117.237551
0.195088 4162.247596
0.202024 4210.976285
0.208544 4252.162326
0.214899 4297.146031
0.221877 4350.69445
0.226862 4387.166121
0.232473 4454.918251
0.237527 4545.425634
0.240838 4624.698066
0.244646 4703.935377
0.248827 4783.146349
0.254376 4853.652126
0.259242 4930.065549
0.26388 5009.244327
0.269528 5046.705871
0.273837 5105.265299
0.277556 5161.792931
0.280944 5223.84249
0.282264 5314.613274
0.284331 5405.331379
0.286771 5496.023143
0.289398 5586.701737
0.291652 5677.406671
0.293719 5768.124775
0.297031 5858.755079
0.29754 5938.225062
0.29936 6040.318598
0.297817 6127.505367
0.296959 6222.21576
0.296039 6313.144585
0.295865 6404.02073
0.299426 6494.633474
0.302053 6585.312068
0.306918 6653.116877
0.311412 6743.663771
0.316755 6822.792795
0.322448 6879.181199
0.328555 6935.540336
0.333805 6981.638716
0.340518 7025.560426
0.346752 7093.268655
0.353483 7160.941764
0.360963 7239.920064
0.365458 7330.466958
0.369578 7421.040191
0.374259 7511.573914
0.378192 7590.802446
0.383055 7647.249383
0.389162 7703.608521
0.395248 7784.956732
0.400136 7839.130339
0.406117 7884.140384
0.4126 7951.831053
0.41684 8008.321891
0.422697 8053.340716
0.428496 8129.688289
0.432981 8197.519857
0.437477 8256.741974
0.443028 8335.856365
0.448217 8412.724644
0.455251 8505.363998
0.460367 8590.188056
0.466973 8652.191008
0.473459 8742.597421
0.479195 8810.34077
0.484433 8878.119239
0.490042 8934.513496
0.495653 8996.58669
0.500391 9051.149428
0.507618 9103.643588
0.514725 9182.648228
0.52239 9250.255486
0.530306 9329.203057
0.535293 9389.427171
0.542023 9441.956451
0.547259 9498.377048
0.552993 9554.762525
0.558091 9599.834868
0.562964 9644.923096
0.569198 9712.631325
0.576178 9780.286874
0.582412 9847.995103
0.588022 9904.38936
0.593881 9968.337972
0.599677 10017.147144
0.603735 10107.724768
0.607486 10184.2167929999
0.612515 10265.979813
0.615531 10334.052491
0.620212 10424.586214
0.624332 10511.37349
0.628827 10605.706341
0.633882 10696.213724
0.637916 10789.064678
0.643057 10877.294341
0.647701 10970.102272
0.652232 11058.374957
0.655419 11149.014041
0.660134 11214.557812
0.664218 11307.405254
0.668525 11395.693743
0.67302 11488.512211
0.677515 11581.330678
0.682569 11669.566487
0.687063 11760.11338
0.690997 11850.699784
0.696238 11941.193997
0.699052 12031.859421
0.701493 12122.551185
0.704245 12217.006956
0.707307 12303.868863
0.708627 12394.639648
0.711254 12485.318242
0.713323 12587.394218
0.715834 12685.143197
0.718766 12783.882065
0.723009 12859.302689
0.729058 12938.38196
0.73654 13028.718132
0.742714 13119.146495
0.748514 13198.243326
0.756931 13299.87152
0.761838 13379.031274
0.768157 13458.091522
0.774145 13548.5330539999
0.782932 13630.168422
0.789848 13683.721231
0.796081 13747.643502
0.800319 13785.204554
0.80706 13832.91034
0.814705 13889.160981
0.822563 13954.005393
0.825742 13987.855118
0.83247 14035.56174
0.83827 14111.909313
0.844194 14190.997364
0.849681 14258.758273
0.855854 14337.828764
0.863148 14421.363383
0.871375 14507.103726
0.877525 14567.245894
0.883591 14619.822
0.888578 14676.260158
0.893439 14721.349223
0.899797 14789.048672
0.903545 14879.648246
0.908786 14970.142459
0.91328 15060.689352
0.917774 15151.236246
0.922829 15241.743629
0.926763 15332.330032
0.93107 15422.890096
0.935938 15513.410649
0.939348 15597.219205
0.942126 15694.701987
0.943944 15785.437651
0.946073 15876.151365
0.948327 15966.856299
0.950767 16057.548064
0.952648 16148.279338
0.955648 16238.931592
0.957902 16329.636526
0.960156 16420.34146
0.962596 16511.033224
0.96541 16601.698648
0.966917 16692.456263
0.969357 16783.148027
0.973665 16873.708091
0.978085 16966.531826
0.982654 17054.801877
0.987148 17145.348771
0.990335 17235.987854
0.992589 17326.692789
0.995216 17417.371383
0.996784 17496.766735
0.99879 17602.633059
0.998803 17689.710077
0.998816 17776.787094
0.998826 17848.720283
0.997672 17941.383872
0.993493 18003.285583
0.988971 18050.749056
0.984667 18065.520775
0.976457 18100.173873
0.967501 18146.237525
0.958544 18180.943304
0.952075 18211.687525
0.946229 18238.601888
0.93914 18284.533838
0.929438 18330.65017
0.922556 18372.78153
0.916004 18399.745647
0.908539 18422.988193
0.899336 18480.427276
0.892054 18519.8376
0.886526 18552.228111
0.879064 18598.186401
0.871598 18615.750012
0.866002 18653.148408
0.857046 18699.212059
0.848839 18756.580902
0.838387 18787.606084
0.825692 18799.10233
0.817853 18815.556493
0.808769 18835.127224
0.797506 18851.065647
0.790226 18862.937152
0.78164 18882.472762
0.777161 18897.932673
0.769942 18906.01383
0.765214 18921.491301
0.757747 18929.590019
0.75122 18942.445124
0.744307 18953.254008
0.729374 18980.809315
0.737341 18984.033349
0.722269 19000.240401
0.715935 19015.831176
0.703669 19024.268344
0.709962 19027.61049
0.698179 19034.301024
0.692414 19051.564221
0.684575 19071.047151
0.680096 19086.507062
0.671633 19094.67602
0.66367 19121.739644
0.657695 19122.161086
0.650229 19134.045761
0.644629 19145.798735
0.638282 19157.60439
0.630068 19169.541745
0.621855 19181.4791
0.614719 19189.554404
0.609413 19220.216678
0.600954 19258.673294
0.595549 19282.807251
0.589012 19312.519581
0.580241 19346.355911
0.57259 19378.039821
0.566992 19401.150667
0.559005 19426.701665
0.550571 19470.456865
0.544226 19493.620392
0.537882 19516.783918
0.530046 19562.768549
0.523824 19574.565423
0.515115 19605.467685
0.504514 19634.98902
0.494587 19678.849582
0.487869 19702.039448
0.48115 19725.229314
0.474805 19748.392841
0.469207 19771.503687
0.462115 19794.719893
0.45241 19818.120481
0.446065 19841.284007
0.438226 19864.552894
0.431881 19887.71642
0.424416 19910.958967
0.418818 19934.069813
0.412099 19957.25968
0.405381 19980.449546
0.396919 19999.976376
0.391571 20026.855619
0.385226 20053.805103
0.377016 20092.244159
0.369552 20119.272663
0.362462 20153.846741
0.3559 20174.276272
0.350505 20201.874762
0.344286 20222.239997
0.3382 20235.063954
0.331234 20262.057338
0.324018 20292.854239
0.317301 20323.61602
0.311513 20361.884284
0.305077 20388.473616
0.298889 20396.848656
0.293414 20408.59285
0.287143 20427.685643
0.280225 20447.383109
0.271515 20470.713456
0.263178 20490.231506
0.253846 20513.605753
0.243993 20552.917897
0.236924 20564.017285
0.225473 20572.396964
0.231561 20573.004278
0.219321 20595.546902
0.213547 20609.583742
0.206879 20633.24778
0.200769 20644.360852
0.194547 20658.906984
0.188508 20685.834936
0.18274 20703.098341
0.176272 20733.842562
0.170482 20758.003696
0.163401 20780.182366
0.157539 20781.632565
0.151735 20790.650706
0.145583 20808.834677
0.138687 20822.715294
0.132531 20862.902458
0.126186 20886.065984
0.120588 20909.17683
0.115171 20929.525667
0.108838 20958.186872
0.1023 20978.614729
0.09724 20990.329656
0.091354 21028.604818
0.087375 21059.173438
0.081775 21070.926412
0.076177 21094.037258
0.070952 21117.121764
0.065161 21134.747682
0.059758 21174.701328
0.052042 21190.38952
